Black Body Radiation Experiment Wed, Oct 19, 2022 11:34 AM
Sensor Position (Degrees)	Light Intensity (Volts)
0.00000	-0.05111
0.00000	-0.05304
0.00000	-0.04950
0.00000	-0.05127
0.00000	-0.05191
0.00000	-0.05320
0.00000	-0.05063
0.00000	-0.04950
0.00000	-0.05288
0.00000	-0.04885
0.00000	-0.05272
0.00000	-0.05095
0.00000	-0.04773
0.00000	-0.05272
0.00000	-0.04740
0.00000	-0.05417
0.00000	-0.05288
0.00000	-0.04869
0.00000	-0.05046
0.00000	-0.05079
0.00000	-0.05111
0.00000	-0.04918
0.00000	-0.04998
0.00000	-0.04982
0.00000	-0.05111
0.00000	-0.05465
0.00000	-0.05481
0.01035	-0.05159
0.01035	-0.04869
0.02070	-0.05530
0.03104	-0.05449
0.04139	-0.05143
0.06209	-0.05159
0.09313	-0.05175
0.11383	-0.04982
0.13453	-0.05465
0.16557	-0.04950
0.18627	-0.05208
0.21731	-0.05111
0.25870	-0.05191
0.30010	-0.05111
0.35184	-0.04724
0.39323	-0.04869
0.45532	-0.04885
0.50706	-0.05063
0.54845	-0.05143
0.57950	-0.05256
0.61054	-0.04982
0.64159	-0.04805
0.66228	-0.04773
0.68298	-0.04789
0.71403	-0.04934
0.74507	-0.04708
0.77611	-0.04595
0.81751	-0.04789
0.86925	-0.05159
0.91064	-0.04950
0.97273	-0.05095
1.03482	-0.05046
1.11761	-0.04950
1.21074	-0.04998
1.31422	-0.05127
1.41770	-0.04628
1.54188	-0.04885
1.68676	-0.04724
1.83163	-0.04901
1.95581	-0.04692
2.07999	-0.05030
2.17312	-0.04982
2.25591	-0.04595
2.33869	-0.04901
2.44217	-0.05079
2.53531	-0.04789
2.61809	-0.04982
2.69053	-0.04934
2.75262	-0.05095
2.81471	-0.04901
2.88715	-0.04756
2.93889	-0.04628
3.00098	-0.04289
3.05272	-0.04467
3.12516	-0.04434
3.17690	-0.04160
3.22864	-0.04193
3.30107	-0.04692
3.35282	-0.04853
3.40456	-0.04612
3.47699	-0.04853
3.52873	-0.04773
3.60117	-0.04756
3.66326	-0.04547
3.72535	-0.04338
3.77709	-0.04305
3.82883	-0.04579
3.87023	-0.03919
3.92197	-0.04402
3.98406	-0.04531
4.03580	-0.03806
4.07719	-0.04708
4.14963	-0.04450
4.22206	-0.04467
4.29450	-0.04241
4.37729	-0.04434
4.48077	-0.04595
4.57390	-0.03854
4.68773	-0.04160
4.81191	-0.03951
4.94644	-0.03951
5.06027	-0.03806
5.16375	-0.03951
5.28793	-0.03967
5.41211	-0.03854
5.53628	-0.03693
5.68116	-0.04048
5.84673	-0.04257
5.97091	-0.04144
6.09509	-0.04450
6.19857	-0.03854
6.31240	-0.04112
6.40553	-0.04177
6.50902	-0.03951
6.60215	-0.03967
6.70563	-0.04048
6.81946	-0.04692
6.93329	-0.03967
7.02643	-0.04418
7.16095	-0.04064
7.26443	-0.04128
7.36792	-0.03677
7.46105	-0.03838
7.54383	-0.03887
7.64732	-0.04177
7.69906	-0.03822
7.80254	-0.03822
7.87498	-0.03983
7.94741	-0.03774
8.00950	-0.04305
8.06124	-0.04160
8.12333	-0.04032
8.19577	-0.03854
8.26821	-0.03887
8.34065	-0.03983
8.42343	-0.04080
8.49587	-0.04128
8.58900	-0.04128
8.66144	-0.03742
8.71318	-0.04128
8.78562	-0.04177
8.85806	-0.03967
8.94084	-0.03774
9.01328	-0.03580
9.09606	-0.03645
9.19955	-0.03677
9.26164	-0.03597
9.33407	-0.03935
9.38581	-0.04096
9.41686	-0.03645
9.46860	-0.03983
9.54104	-0.03919
9.58243	-0.03468
9.61347	-0.03645
9.65487	-0.03935
9.67556	-0.03758
9.68591	-0.03564
9.70661	-0.03629
9.71696	-0.03436
9.72730	-0.03838
9.74800	-0.03532
9.76870	-0.04128
9.81009	-0.03274
9.85148	-0.03580
9.90322	-0.04112
9.94462	-0.03887
9.97566	-0.03645
10.01705	-0.03484
10.05845	-0.03597
10.09984	-0.03693
10.14123	-0.04032
10.19297	-0.03693
10.23437	-0.04032
10.29646	-0.04128
10.34820	-0.04015
10.43098	-0.03548
10.52412	-0.03468
10.63795	-0.03387
10.74143	-0.04257
10.86561	-0.03403
10.97944	-0.03887
11.10361	-0.03484
11.22779	-0.03693
11.33127	-0.03532
11.42441	-0.03677
11.52789	-0.03790
11.61068	-0.03677
11.68311	-0.03742
11.74520	-0.04064
11.81764	-0.03709
11.87973	-0.03564
11.93147	-0.03436
11.98321	-0.03742
12.01426	-0.03935
12.05565	-0.03580
12.08669	-0.03967
12.11774	-0.03597
12.13843	-0.04209
12.16948	-0.03983
12.20052	-0.03548
12.23157	-0.03661
12.25226	-0.03693
12.27296	-0.03677
12.29366	-0.03403
12.32470	-0.04015
12.34540	-0.04015
12.38679	-0.03564
12.40749	-0.03661
12.44888	-0.03790
12.49027	-0.03838
12.53167	-0.03613
12.57306	-0.03967
12.61445	-0.03500
12.65584	-0.03629
12.70758	-0.03629
12.73863	-0.03371
12.78002	-0.03597
12.82141	-0.03758
12.85246	-0.03774
12.89385	-0.03854
12.91455	-0.03806
12.94559	-0.03564
12.96629	-0.03661
12.97664	-0.03580
12.99733	-0.03564
13.01803	-0.03790
13.03873	-0.04273
13.05942	-0.03580
13.08012	-0.03661
13.10082	-0.03838
13.13186	-0.03709
13.17325	-0.03597
13.21465	-0.03548
13.24569	-0.03903
13.28708	-0.03436
13.33882	-0.03516
13.38022	-0.03742
13.43196	-0.03725
13.48370	-0.03629
13.53544	-0.03967
13.59753	-0.03532
13.65962	-0.03838
13.72171	-0.03742
13.78380	-0.03403
13.85623	-0.03951
13.91832	-0.03387
13.98041	-0.03468
14.04250	-0.03210
14.10459	-0.03178
14.16668	-0.03452
14.24947	-0.03661
14.30121	-0.03258
14.36330	-0.03323
14.40469	-0.03629
14.45643	-0.03645
14.50817	-0.03870
14.55991	-0.03790
14.61165	-0.03629
14.66339	-0.03452
14.71513	-0.03597
14.75653	-0.03387
14.80827	-0.03403
14.86001	-0.03725
14.90140	-0.03854
14.93245	-0.03403
14.97384	-0.03903
14.99454	-0.03291
15.02558	-0.03371
15.05663	-0.03838
15.07732	-0.03468
15.09802	-0.03403
15.11871	-0.03242
15.12906	-0.03935
15.14976	-0.03597
15.17046	-0.03355
15.18080	-0.03355
15.20150	-0.03178
15.21185	-0.03242
15.23254	-0.03580
15.24289	-0.03291
15.26359	-0.03194
15.29463	-0.03065
15.32568	-0.03146
15.37742	-0.03291
15.41881	-0.03403
15.46020	-0.03645
15.50160	-0.03258
15.54299	-0.02968
15.59473	-0.03387
15.64647	-0.03484
15.68787	-0.03371
15.72926	-0.03371
15.76030	-0.03452
15.78100	-0.03274
15.81204	-0.03178
15.84309	-0.03049
15.86378	-0.03226
15.89483	-0.02952
15.91553	-0.03274
15.92587	-0.03194
15.93622	-0.03580
15.93622	-0.03146
15.93622	-0.03307
15.93622	-0.03339
15.93622	-0.03403
15.93622	-0.03194
15.93622	-0.03564
15.93622	-0.03774
15.93622	-0.03258
15.93622	-0.03049
15.93622	-0.02791
15.93622	-0.03097
15.94657	-0.03436
15.96727	-0.03500
15.98796	-0.03355
16.01901	-0.03291
16.05005	-0.03323
16.09144	-0.03258
16.13284	-0.03500
16.17423	-0.03580
16.21562	-0.03258
16.25702	-0.03001
16.29841	-0.03033
16.33980	-0.03291
16.37085	-0.03001
16.40189	-0.03242
16.42259	-0.02791
16.44328	-0.02791
16.45363	-0.02662
16.46398	-0.03081
16.48468	-0.03323
16.49502	-0.03452
16.50537	-0.03323
16.51572	-0.03274
16.52607	-0.03194
16.53642	-0.03226
16.55711	-0.02839
16.56746	-0.03081
16.58816	-0.03258
16.61920	-0.03387
16.63990	-0.02968
16.65025	-0.02920
16.66060	-0.03210
16.67094	-0.03129
16.68129	-0.02920
16.69164	-0.03049
16.70199	-0.02807
16.71234	-0.03516
16.72268	-0.03081
16.74338	-0.03274
16.77443	-0.02823
16.79512	-0.02711
16.80547	-0.02759
16.82617	-0.02775
16.83652	-0.02888
16.85721	-0.03017
16.86756	-0.02598
16.88826	-0.03049
16.89860	-0.03033
16.91930	-0.03162
16.94000	-0.03258
16.97104	-0.02968
17.00209	-0.02791
17.03313	-0.02904
17.07452	-0.02888
17.11592	-0.02936
17.15731	-0.02888
17.20905	-0.03129
17.26079	-0.02872
17.30218	-0.02920
17.35392	-0.02920
17.39532	-0.02839
17.42636	-0.03081
17.48845	-0.02856
17.54019	-0.02662
17.59193	-0.02662
17.65402	-0.02872
17.69542	-0.02839
17.75750	-0.02501
17.80925	-0.02936
17.86099	-0.02308
17.93342	-0.02517
18.02656	-0.02356
18.08865	-0.02469
18.15074	-0.02501
18.21283	-0.02582
18.27491	-0.02501
18.34735	-0.02662
18.40944	-0.02743
18.47153	-0.02469
18.53362	-0.02582
18.58536	-0.02743
18.61640	-0.02662
18.63710	-0.02533
18.65780	-0.02678
18.67849	-0.02839
18.68884	-0.02211
18.68884	-0.02211
18.68884	-0.02034
18.68884	-0.02356
18.68884	-0.02469
18.69919	-0.02372
18.69919	-0.02050
18.70954	-0.02340
18.70954	-0.01937
18.73023	-0.02131
18.75093	-0.02372
18.76128	-0.02163
18.77163	-0.01647
18.79232	-0.01970
18.82337	-0.02324
18.84407	-0.02227
18.85441	-0.01728
18.87511	-0.02308
18.89581	-0.02340
18.91650	-0.02211
18.94755	-0.02082
18.97859	-0.01937
19.00964	-0.02050
19.05103	-0.01712
19.09242	-0.01889
19.14416	-0.01776
19.19590	-0.01808
19.25799	-0.01470
19.30973	-0.02050
19.38217	-0.01680
19.43391	-0.01760
19.49600	-0.01567
19.54774	-0.01535
19.58914	-0.00858
19.64088	-0.01228
19.70297	-0.01293
19.75471	-0.00922
19.78575	-0.00520
19.83749	-0.01035
19.88923	-0.01438
19.93063	-0.01132
19.97202	-0.00552
20.02376	-0.00745
20.05480	-0.00455
20.09620	-0.00552
20.13759	-0.00391
20.17898	0.00012
20.24107	0.00624
20.33421	0.00383
20.43769	0.00834
20.53082	0.00930
20.63430	0.01140
20.72744	0.01526
20.85162	0.02138
20.96545	0.02122
21.06893	0.03331
21.14136	0.03685
21.21380	0.04039
21.26554	0.04233
21.30694	0.04942
21.32763	0.05312
21.34833	0.05199
21.37937	0.05618
21.40007	0.05618
21.41042	0.06279
21.43111	0.06327
21.44146	0.06649
21.46216	0.06214
21.50355	0.06424
21.53460	0.06681
21.56564	0.07149
21.60703	0.06987
21.66912	0.07084
21.72086	0.07664
21.79330	0.07874
21.88643	0.08228
21.95887	0.07906
22.07270	0.08695
22.15549	0.08743
22.24862	0.08872
22.33141	0.09098
22.43489	0.09082
22.60046	0.09501
22.66255	0.09420
22.77638	0.09195
22.86951	0.08872
22.97300	0.08405
23.03508	0.08421
23.11787	0.07632
23.20066	0.07616
23.27309	0.07229
23.33518	0.06391
23.38692	0.06182
23.44901	0.05103
23.50075	0.05054
23.54215	0.04297
23.58354	0.04056
23.62493	0.03975
23.65598	0.03331
23.68702	0.02735
23.72841	0.02799
23.75946	0.02831
23.81120	0.02283
23.86294	0.02251
23.92503	0.01945
23.98712	0.01945
24.05956	0.01381
24.12165	0.00817
24.21478	0.00366
24.31826	0.00157
24.39070	-0.00085
24.48383	0.00060
24.55627	-0.00536
24.61836	-0.00101
24.70114	-0.01261
24.78393	-0.01132
24.86672	-0.01212
24.95985	-0.01261
25.04263	-0.01728
25.12542	-0.01518
25.21855	-0.01760
25.31169	-0.01808
25.39447	-0.02163
25.48761	-0.02211
25.54970	-0.02098
25.62213	-0.02276
25.69457	-0.02807
25.75666	-0.02614
25.81875	-0.02566
25.89119	-0.02952
25.95328	-0.02404
26.01537	-0.02727
26.09815	-0.02533
26.17059	-0.02904
26.25337	-0.02533
26.33616	-0.03274
26.42929	-0.02839
26.51208	-0.02630
26.58452	-0.02549
26.66730	-0.02646
26.75009	-0.02936
26.82252	-0.03081
26.90531	-0.02211
26.97775	-0.03049
27.06053	-0.02759
27.13297	-0.02759
27.22610	-0.02759
27.28819	-0.02598
27.36063	-0.02678
27.45376	-0.02904
27.53655	-0.02839
27.62968	-0.02904
27.71247	-0.02614
27.80560	-0.03001
27.87804	-0.02614
27.95048	-0.02356
28.02292	-0.03178
28.09535	-0.02646
28.16779	-0.02888
28.22988	-0.02856
28.31266	-0.02437
28.37475	-0.02823
28.44719	-0.02630
28.51963	-0.03113
28.59207	-0.03097
28.66450	-0.02743
28.74729	-0.03049
28.80938	-0.03178
28.89216	-0.02904
28.96460	-0.02566
29.03704	-0.03065
29.10948	-0.02759
29.17156	-0.03661
29.25435	-0.02791
29.31644	-0.02888
29.37853	-0.02904
29.45097	-0.02823
29.51306	-0.02920
29.58549	-0.02775
29.64758	-0.02662
29.72002	-0.03065
29.79246	-0.03001
29.85455	-0.03178
29.92698	-0.02872
30.00977	-0.03097