Black Body Radiation Experiment Wed, Oct 19, 2022 11:27 AM
Sensor Position (Degrees)	Light Intensity (Volts)
0.00000	-0.03919
0.00000	-0.04048
0.00000	-0.04241
0.00000	-0.04096
0.00000	-0.04273
0.00000	-0.04032
0.00000	-0.04209
0.00000	-0.04080
0.00000	-0.04209
0.00000	-0.03709
0.00000	-0.04241
0.00000	-0.04305
0.00000	-0.04015
0.00000	-0.04354
0.00000	-0.03597
0.00000	-0.04322
0.00000	-0.03983
0.00000	-0.03790
0.00000	-0.04193
0.00000	-0.03999
0.00000	-0.03999
0.00000	-0.03887
0.00000	-0.04402
0.00000	-0.04515
0.00000	-0.04177
0.00000	-0.04241
0.00000	-0.04112
0.00000	-0.03999
0.00000	-0.03854
0.00000	-0.03999
0.00000	-0.04499
0.00000	-0.03887
0.00000	-0.04177
0.00000	-0.04032
0.00000	-0.03951
0.00000	-0.03693
0.00000	-0.03838
0.00000	-0.04064
0.00000	-0.03919
0.00000	-0.03935
0.00000	-0.04160
0.00000	-0.04080
0.00000	-0.04128
0.00000	-0.03629
0.00000	-0.04305
0.00000	-0.03951
0.00000	-0.04177
0.00000	-0.03983
0.00000	-0.04096
0.00000	-0.04048
0.00000	-0.04064
0.00000	-0.04241
0.00000	-0.04177
0.00000	-0.04193
0.00000	-0.03999
0.00000	-0.04289
0.00000	-0.04225
0.00000	-0.04144
0.00000	-0.04209
0.00000	-0.04209
0.00000	-0.04096
0.00000	-0.04483
0.00000	-0.04064
0.00000	-0.03919
0.00000	-0.04128
0.00000	-0.04467
0.00000	-0.03870
0.00000	-0.03935
0.00000	-0.03822
0.00000	-0.04080
0.00000	-0.03935
0.00000	-0.04257
0.00000	-0.04048
0.00000	-0.04305
0.00000	-0.04080
0.00000	-0.04225
0.00000	-0.03903
0.00000	-0.04193
0.00000	-0.03935
0.00000	-0.03951
0.00000	-0.04080
0.00000	-0.04225
0.00000	-0.04144
0.00000	-0.03822
0.00000	-0.03903
0.00000	-0.03806
0.00000	-0.03935
0.00000	-0.04660
0.00000	-0.04289
0.00000	-0.04499
0.00000	-0.04032
0.00000	-0.03806
0.00000	-0.04096
0.00000	-0.04305
0.00000	-0.03919
0.00000	-0.04015
0.00000	-0.04225
0.00000	-0.04128
0.00000	-0.04160
0.00000	-0.04112
0.00000	-0.03725
0.00000	-0.03790
0.00000	-0.03999
0.00000	-0.03597
0.00000	-0.03677
0.00000	-0.03870
0.00000	-0.04064
0.00000	-0.03983
0.00000	-0.04402
0.00000	-0.03854
0.01035	-0.04015
0.01035	-0.03967
0.01035	-0.04048
0.01035	-0.04418
0.01035	-0.04241
0.01035	-0.03661
0.01035	-0.03693
0.01035	-0.04032
0.01035	-0.04289
0.01035	-0.04386
0.01035	-0.04144
0.01035	-0.04032
0.01035	-0.03838
0.01035	-0.04144
0.01035	-0.04160
0.01035	-0.03967
0.01035	-0.03999
0.01035	-0.03903
0.01035	-0.04322
0.01035	-0.03967
0.01035	-0.04144
0.01035	-0.04257
0.01035	-0.04160
0.01035	-0.04257
0.01035	-0.03951
0.01035	-0.03935
0.01035	-0.04193
0.01035	-0.03645
0.01035	-0.03903
0.01035	-0.03822
0.02070	-0.03999
0.02070	-0.03999
0.02070	-0.03838
0.02070	-0.03887
0.02070	-0.03870
0.02070	-0.03951
0.06209	-0.04032
0.36219	-0.03806
0.38288	-0.03709
0.65194	-0.03790
0.85890	-0.03822
1.21074	-0.03548
1.56258	-0.03339
1.97651	-0.03758
2.43183	-0.03870
2.70088	-0.03677
2.90784	-0.03790
3.08376	-0.03564
3.24933	-0.03613
3.40456	-0.04112
3.48734	-0.03725
3.55978	-0.03661
3.59082	-0.03468
3.60117	-0.03742
3.60117	-0.03629
3.60117	-0.03613
3.60117	-0.03194
3.60117	-0.03081
3.60117	-0.03838
3.60117	-0.03661
3.60117	-0.03355
3.60117	-0.03725
3.60117	-0.03436
3.62187	-0.03371
3.65291	-0.03548
3.71500	-0.03452
3.78744	-0.03548
3.88057	-0.03854
3.98406	-0.03355
4.07719	-0.03178
4.18067	-0.03242
4.28415	-0.03580
4.38764	-0.03790
4.49112	-0.03500
4.60495	-0.03854
4.70843	-0.03371
4.81191	-0.03564
4.92574	-0.03758
5.04992	-0.03693
5.16375	-0.03645
5.27758	-0.03870
5.40176	-0.03129
5.51559	-0.03742
5.61907	-0.03548
5.72255	-0.03564
5.86743	-0.03371
5.97091	-0.03935
6.10544	-0.03436
6.22961	-0.03484
6.33310	-0.03516
6.45727	-0.03725
6.59180	-0.03355
6.71598	-0.03452
6.84016	-0.03371
6.96434	-0.03146
7.09886	-0.03516
7.20234	-0.03500
7.31617	-0.03226
7.43000	-0.03645
7.55418	-0.03419
7.66801	-0.03516
7.78184	-0.03419
7.89567	-0.03580
8.00950	-0.03291
8.11299	-0.03291
8.24751	-0.03307
8.34065	-0.03452
8.46482	-0.03194
8.58900	-0.03532
8.68214	-0.03403
8.80631	-0.03436
8.92015	-0.03629
9.03398	-0.03709
9.13746	-0.03226
9.25129	-0.03613
9.34442	-0.03113
9.44790	-0.03001
9.55139	-0.03226
9.69626	-0.03081
9.78939	-0.03613
9.91357	-0.03291
10.00671	-0.03258
10.11019	-0.02904
10.22402	-0.03017
10.38959	-0.03291
10.50342	-0.03017
10.62760	-0.03081
10.77247	-0.03242
10.88630	-0.03226
11.01048	-0.02727
11.11396	-0.03178
11.25884	-0.03339
11.36232	-0.03436
11.45545	-0.02968
11.55894	-0.03242
11.65207	-0.03033
11.75555	-0.03065
11.84868	-0.03226
11.96251	-0.03419
12.08669	-0.03194
12.20052	-0.03146
12.32470	-0.03033
12.44888	-0.03146
12.57306	-0.03291
12.71793	-0.03001
12.82141	-0.02904
12.94559	-0.03452
13.05942	-0.03452
13.17325	-0.02936
13.25604	-0.02839
13.34917	-0.02920
13.45265	-0.03113
13.54579	-0.02920
13.63892	-0.02920
13.74240	-0.02839
13.81484	-0.02952
13.90798	-0.03113
14.05285	-0.02872
14.22877	-0.03129
14.34260	-0.02662
14.46678	-0.02678
14.64270	-0.02872
14.76688	-0.03001
14.87036	-0.02582
14.97384	-0.02453
15.16011	-0.02437
15.31533	-0.02807
15.42916	-0.02807
15.54299	-0.02598
15.61543	-0.02984
15.70856	-0.02711
15.80170	-0.02952
15.89483	-0.02775
15.97761	-0.02469
16.06040	-0.02614
16.14319	-0.02775
16.23632	-0.03097
16.32945	-0.02823
16.43294	-0.02823
16.52607	-0.03097
16.59851	-0.02630
16.69164	-0.02501
16.78477	-0.02807
16.86756	-0.02259
16.98139	-0.03017
17.10557	-0.02614
17.22975	-0.02501
17.35392	-0.02469
17.48845	-0.02404
17.64367	-0.02453
17.78855	-0.02517
17.95412	-0.02324
18.14039	-0.02050
18.26457	-0.02131
18.46118	-0.01921
18.59571	-0.02147
18.80267	-0.01454
18.96824	-0.01373
19.18556	-0.01132
19.39252	-0.01148
19.58914	-0.00713
19.72366	-0.00487
19.90993	0.00125
20.09620	0.00946
20.30316	0.01623
20.49978	0.02283
20.69639	0.03041
20.90336	0.03862
21.07928	0.05151
21.26554	0.06343
21.48286	0.08228
21.72086	0.09114
22.01061	0.10532
22.21758	0.11466
22.42454	0.12497
22.64185	0.13141
22.83847	0.12771
23.04543	0.11547
23.22135	0.11128
23.39727	0.09613
23.53180	0.08695
23.67667	0.07874
23.83190	0.06923
23.98712	0.05377
24.15269	0.04716
24.31826	0.04136
24.45279	0.02718
24.59766	0.02348
24.75289	0.01430
24.90811	0.01027
25.03229	0.00447
25.21855	-0.00181
25.38413	-0.00294
25.52900	-0.00810
25.66353	-0.01277
25.78770	-0.01245
25.92223	-0.01406
26.03606	-0.01647
26.19128	-0.01373
26.34651	-0.01647
26.49138	-0.01873
26.61556	-0.01841
26.75009	-0.01808
26.86392	-0.02227
26.98810	-0.02002
27.12262	-0.02131
27.26750	-0.01535
27.41237	-0.02276
27.55725	-0.02227
27.70212	-0.01551
27.84700	-0.02372
27.99187	-0.01921
28.12640	-0.01696
28.27127	-0.02163
28.43684	-0.01744
28.58172	-0.01712
28.72659	-0.01744
28.88182	-0.01986
29.01634	-0.02002
29.16122	-0.02195
29.29574	-0.02276
29.43027	-0.02292
29.56480	-0.02002
29.70967	-0.02227
29.87524	-0.02227
30.04081	-0.02195